Wavelength nm.	RawData ...
190.00	0.520020
191.00	0.502319
192.00	0.483276
193.00	0.454224
194.00	0.421265
195.00	0.382080
196.00	0.341797
197.00	0.303101
198.00	0.263794
199.00	0.229126
200.00	0.199219
201.00	0.171387
202.00	0.151367
203.00	0.136108
204.00	0.125854
205.00	0.119019
206.00	0.113647
207.00	0.111938
208.00	0.112305
209.00	0.112183
210.00	0.115723
211.00	0.117310
212.00	0.120483
213.00	0.123047
214.00	0.126221
215.00	0.130249
216.00	0.133789
217.00	0.138794
218.00	0.143433
219.00	0.148560
220.00	0.154663
221.00	0.159912
222.00	0.166138
223.00	0.172729
224.00	0.179810
225.00	0.186890
226.00	0.193115
227.00	0.200684
228.00	0.208618
229.00	0.217041
230.00	0.226929
231.00	0.237183
232.00	0.249756
233.00	0.263550
234.00	0.278442
235.00	0.292847
236.00	0.307129
237.00	0.320679
238.00	0.334961
239.00	0.349854
240.00	0.364380
241.00	0.378784
242.00	0.390625
243.00	0.402588
244.00	0.410522
245.00	0.414551
246.00	0.414795
247.00	0.410522
248.00	0.403687
249.00	0.393066
250.00	0.381958
251.00	0.370239
252.00	0.357910
253.00	0.341919
254.00	0.322266
255.00	0.297852
256.00	0.269775
257.00	0.239258
258.00	0.202881
259.00	0.167480
260.00	0.134033
261.00	0.106079
262.00	0.085571
263.00	0.067261
264.00	0.053833
265.00	0.044556
266.00	0.037842
267.00	0.034912
268.00	0.032227
269.00	0.031006
270.00	0.030762
271.00	0.030518
272.00	0.031616
273.00	0.032715
274.00	0.033569
275.00	0.034180
276.00	0.035278
277.00	0.036499
278.00	0.037842
279.00	0.039307
280.00	0.040527
281.00	0.042236
282.00	0.042969
283.00	0.043701
284.00	0.045288
285.00	0.045654
286.00	0.046387
287.00	0.046265
288.00	0.046143
289.00	0.045532
290.00	0.045532
291.00	0.044312
292.00	0.043579
293.00	0.042847
294.00	0.041382
295.00	0.039917
296.00	0.037720
297.00	0.036133
298.00	0.034424
299.00	0.032715
300.00	0.030518
301.00	0.028809
302.00	0.026367
303.00	0.023926
304.00	0.021973
305.00	0.020630
306.00	0.018311
307.00	0.016479
308.00	0.015625
309.00	0.014282
310.00	0.013428
311.00	0.013550
312.00	0.012329
313.00	0.012085
314.00	0.011841
315.00	0.010498
316.00	0.010986
317.00	0.010620
318.00	0.010254
319.00	0.010254
320.00	0.009888
321.00	0.009399
322.00	0.009155
323.00	0.008911
324.00	0.009155
325.00	0.008789
326.00	0.008179
327.00	0.008667
328.00	0.007324
329.00	0.008545
330.00	0.008057
331.00	0.007324
332.00	0.007690
333.00	0.006958
334.00	0.007202
335.00	0.006714
336.00	0.006958
337.00	0.007080
338.00	0.006958
339.00	0.006592
340.00	0.005981
341.00	0.006226
342.00	0.006348
343.00	0.005981
344.00	0.005371
345.00	0.005981
346.00	0.005859
347.00	0.005371
348.00	0.005737
349.00	0.005493
350.00	0.005371
351.00	0.005371
352.00	0.005493
353.00	0.005615
354.00	0.005981
355.00	0.005371
356.00	0.005493
357.00	0.006226
358.00	0.006104
359.00	0.005615
360.00	0.006592
361.00	0.006226
362.00	0.006592
363.00	0.005981
364.00	0.005737
365.00	0.005005
366.00	0.000000
367.00	0.000732
368.00	0.000488
369.00	0.000000
370.00	0.000366
371.00	0.000610
372.00	0.000122
373.00	0.000366
374.00	0.000732
375.00	0.000610
376.00	0.000366
377.00	0.000244
378.00	0.000244
379.00	0.000732
380.00	0.000488
381.00	0.000488
382.00	0.000732
383.00	0.000977
384.00	0.000732
385.00	0.001343
386.00	0.000732
387.00	0.001221
388.00	0.000977
389.00	0.000854
390.00	0.000732
391.00	0.001343
392.00	0.000977
393.00	0.001099
394.00	0.001099
395.00	0.001587
396.00	0.001343
397.00	0.001709
398.00	0.001343
399.00	0.001465
400.00	0.001343
401.00	0.001465
402.00	0.001343
403.00	0.001709
404.00	0.001709
405.00	0.001587
406.00	0.001709
407.00	0.001831
408.00	0.001587
409.00	0.001587
410.00	0.001587
411.00	0.001831
412.00	0.001709
413.00	0.001587
414.00	0.001587
415.00	0.001953
416.00	0.001953
417.00	0.001465
418.00	0.001831
419.00	0.001465
420.00	0.001709
421.00	0.001587
422.00	0.001831
423.00	0.001831
424.00	0.001709
425.00	0.002319
426.00	0.002197
427.00	0.001587
428.00	0.001709
429.00	0.001953
430.00	0.001953
431.00	0.001953
432.00	0.002197
433.00	0.001953
434.00	0.002319
435.00	0.002319
436.00	0.002197
437.00	0.002441
438.00	0.002563
439.00	0.002808
440.00	0.002808
441.00	0.002930
442.00	0.002930
443.00	0.003052
444.00	0.002930
445.00	0.002930
446.00	0.003052
447.00	0.002808
448.00	0.002563
449.00	0.002319
450.00	0.002441
451.00	0.001953
452.00	0.001709
453.00	0.001709
454.00	0.001831
455.00	0.001465
456.00	0.001587
457.00	0.001831
458.00	0.001831
459.00	0.001587
460.00	0.001587
461.00	0.001831
462.00	0.002075
463.00	0.002075
464.00	0.002197
465.00	0.002075
466.00	0.002197
467.00	0.002075
468.00	0.002197
469.00	0.002319
470.00	0.002197
471.00	0.002319
472.00	0.001953
473.00	0.001709
474.00	0.002075
475.00	0.002075
476.00	0.001709
477.00	0.001953
478.00	0.001953
479.00	0.002075
480.00	0.001953
481.00	0.001953
482.00	0.001953
483.00	0.002197
484.00	0.002075
485.00	0.001953
486.00	0.002075
487.00	0.001953
488.00	0.001953
489.00	0.002075
490.00	0.002197
491.00	0.002197
492.00	0.002075
493.00	0.002441
494.00	0.002197
495.00	0.002197
496.00	0.002319
497.00	0.002441
498.00	0.002441
499.00	0.002441
500.00	0.002319
501.00	0.002441
502.00	0.002319
503.00	0.002441
504.00	0.002441
505.00	0.002319
506.00	0.002319
507.00	0.002441
508.00	0.002441
509.00	0.002441
510.00	0.002441
511.00	0.002441
512.00	0.002319
513.00	0.002563
514.00	0.002075
515.00	0.002197
516.00	0.002319
517.00	0.002319
518.00	0.002441
519.00	0.002441
520.00	0.002441
521.00	0.002441
522.00	0.002319
523.00	0.002441
524.00	0.002197
525.00	0.002441
526.00	0.002441
527.00	0.002441
528.00	0.002197
529.00	0.002441
530.00	0.002319
531.00	0.002319
532.00	0.002319
533.00	0.002319
534.00	0.002441
535.00	0.002441
536.00	0.002441
537.00	0.000000
538.00	0.000000
539.00	0.000122
540.00	0.000122
541.00	0.000488
542.00	0.000366
543.00	0.000366
544.00	0.000488
545.00	0.000732
546.00	0.000732
547.00	0.000732
548.00	0.000977
549.00	0.000854
550.00	0.000977
551.00	0.001221
552.00	0.001099
553.00	0.001221
554.00	0.001099
555.00	0.001099
556.00	0.001221
557.00	0.001099
558.00	0.000977
559.00	0.001099
560.00	0.000977
561.00	0.001099
562.00	0.001099
563.00	0.001099
564.00	0.001099
565.00	0.001465
566.00	0.000977
567.00	0.000977
568.00	0.000977
569.00	0.001099
570.00	0.000977
571.00	0.000977
572.00	0.000977
573.00	0.000854
574.00	0.000977
575.00	0.000977
576.00	0.000977
577.00	0.000854
578.00	0.000854
579.00	0.000977
580.00	0.000732
581.00	0.000854
582.00	0.000854
583.00	0.000610
584.00	0.000732
585.00	0.000732
586.00	0.000610
587.00	0.000610
588.00	0.000732
589.00	0.000732
590.00	0.000732
591.00	0.000244
592.00	0.000488
593.00	0.000610
594.00	0.000488
595.00	0.000610
596.00	0.000610
597.00	0.000610
598.00	0.000488
599.00	0.000366
600.00	0.000488
601.00	0.000488
602.00	0.000366
603.00	0.000366
604.00	0.000488
605.00	0.000488
606.00	0.000488
607.00	0.000366
608.00	0.000366
609.00	0.000244
610.00	0.000122
611.00	0.000244
612.00	0.000122
613.00	0.000244
614.00	0.000122
615.00	0.000122
616.00	0.000244
617.00	0.000244
618.00	0.000244
619.00	0.000244
620.00	0.000366
621.00	0.000244
622.00	0.000122
623.00	0.000122
624.00	0.000122
625.00	0.000122
626.00	0.000000
627.00	0.000000
628.00	0.000122
629.00	0.000122
630.00	0.000122
631.00	0.000000
632.00	0.000000
633.00	0.000000
634.00	0.000000
635.00	-0.000122
636.00	-0.000122
637.00	-0.000122
638.00	-0.000244
639.00	-0.000366
640.00	-0.000122
641.00	-0.000244
642.00	-0.000488
643.00	-0.000244
644.00	-0.000122
645.00	0.000000
646.00	0.000000
647.00	0.000000
648.00	0.000000
649.00	0.000000
650.00	0.000122
651.00	0.000000
652.00	0.000000
653.00	0.000000
654.00	0.000000
655.00	0.000000
656.00	0.000000
657.00	0.000000
658.00	0.000000
659.00	0.000000
660.00	0.000000
661.00	0.000000
662.00	0.000000
663.00	-0.000122
664.00	0.000000
665.00	0.000000
666.00	0.000000
667.00	0.000000
668.00	0.000000
669.00	-0.000122
670.00	-0.000122
671.00	-0.000122
672.00	-0.000122
673.00	-0.000122
674.00	0.000000
675.00	0.000000
676.00	-0.000122
677.00	0.000000
678.00	0.000000
679.00	0.000000
680.00	-0.000122
681.00	-0.000122
682.00	-0.000244
683.00	-0.000244
684.00	-0.000366
685.00	-0.000122
686.00	-0.000122
687.00	-0.000122
688.00	-0.000244
689.00	-0.000122
690.00	-0.000122
691.00	-0.000122
692.00	-0.000122
693.00	0.000000
694.00	-0.000122
695.00	-0.000244
696.00	-0.000122
697.00	-0.000244
698.00	0.000000
699.00	-0.000244
700.00	-0.000244
701.00	-0.000122
702.00	-0.000122
703.00	-0.000122
704.00	-0.000244
705.00	-0.000244
706.00	-0.000244
707.00	-0.000244
708.00	-0.000244
709.00	-0.000122
710.00	-0.000122
711.00	-0.000366
712.00	-0.000244
713.00	-0.000122
714.00	-0.000244
715.00	-0.000244
716.00	-0.000366
717.00	-0.000244
718.00	-0.000366
719.00	-0.000488
720.00	-0.000244
721.00	-0.000244
722.00	-0.000122
723.00	-0.000366
724.00	-0.000366
725.00	-0.000366
726.00	-0.000488
727.00	-0.000244
728.00	-0.000244
729.00	-0.000244
730.00	-0.000366
731.00	-0.000488
732.00	-0.000366
733.00	-0.000366
734.00	-0.000366
735.00	-0.000366
736.00	-0.000366
737.00	-0.000244
738.00	-0.000488
739.00	-0.000366
740.00	-0.000488
741.00	-0.000488
742.00	-0.000488
743.00	-0.000488
744.00	-0.000366
745.00	-0.000488
746.00	-0.000488
747.00	-0.000488
748.00	-0.000610
749.00	-0.000610
750.00	-0.000732
751.00	-0.000610
752.00	-0.000610
753.00	-0.000732
754.00	-0.000610
755.00	-0.000610
756.00	-0.000488
757.00	-0.000610
758.00	-0.000488
759.00	-0.000488
760.00	-0.000610
761.00	-0.000977
762.00	-0.000732
763.00	-0.000610
764.00	-0.000854
765.00	-0.000854
766.00	-0.000854
767.00	-0.000732
768.00	-0.000854
769.00	-0.000732
770.00	-0.000732
771.00	-0.000732
772.00	-0.000854
773.00	-0.000732
774.00	-0.000732
775.00	-0.000854
776.00	-0.000854
777.00	-0.000854
778.00	-0.000732
779.00	-0.000732
780.00	-0.000732
781.00	-0.000732
782.00	-0.000610
783.00	-0.000732
784.00	-0.000854
785.00	-0.000610
786.00	-0.000610
787.00	-0.000854
788.00	-0.000854
789.00	-0.000854
790.00	-0.000854
791.00	-0.000732
792.00	-0.000732
793.00	-0.000854
794.00	-0.000732
795.00	-0.000610
796.00	-0.000854
797.00	-0.000732
798.00	-0.000732
799.00	-0.000732
800.00	-0.000732
801.00	-0.000854
802.00	-0.000854
803.00	-0.000610
804.00	-0.000732
805.00	-0.000610
806.00	-0.000732
807.00	-0.000732
808.00	-0.000732
809.00	-0.000732
810.00	-0.000732
811.00	-0.000854
812.00	-0.000854
813.00	-0.000732
814.00	-0.000732
815.00	-0.000732
816.00	-0.000732
817.00	-0.000854
818.00	-0.000732
819.00	-0.000854
820.00	-0.000854
821.00	-0.000732
822.00	-0.000732
823.00	-0.000854
824.00	-0.000732
825.00	-0.000732
826.00	-0.000732
827.00	-0.000732
828.00	-0.000610
829.00	-0.000732
830.00	-0.000732
831.00	-0.000732
832.00	-0.000854
833.00	-0.000732
834.00	-0.000854
835.00	-0.000854
836.00	-0.000732
837.00	-0.000854
838.00	-0.000732
839.00	-0.000732
840.00	-0.000732
841.00	-0.000854
842.00	-0.000732
843.00	-0.000977
844.00	-0.000854
845.00	-0.000854
846.00	-0.000732
847.00	-0.000732
848.00	-0.000610
849.00	-0.000854
850.00	-0.000610
851.00	-0.000610
852.00	-0.000732
853.00	-0.000610
854.00	-0.000732
855.00	-0.000488
856.00	-0.000488
857.00	-0.000610
858.00	-0.000610
859.00	-0.000488
860.00	-0.000488
861.00	-0.000366
862.00	-0.000488
863.00	-0.000488
864.00	-0.000488
865.00	-0.000610
866.00	-0.000366
867.00	-0.000488
868.00	-0.000366
869.00	-0.000366
870.00	-0.000488
871.00	-0.000366
872.00	-0.000366
873.00	-0.000488
874.00	-0.000366
875.00	-0.000488
876.00	-0.000366
877.00	-0.000244
878.00	-0.000244
879.00	-0.000244
880.00	-0.000366
881.00	-0.000244
882.00	-0.000122
883.00	-0.000366
884.00	0.000000
885.00	0.000000
886.00	-0.000122
887.00	-0.000122
888.00	-0.000122
889.00	-0.000122
890.00	-0.000122
891.00	-0.000244
892.00	-0.000122
893.00	-0.000244
894.00	-0.000122
895.00	-0.000488
896.00	-0.000244
897.00	-0.000122
898.00	0.000000
899.00	0.000000
900.00	0.000000