Wavelength nm.	RawData ...
190.00	0.679443
191.00	0.657837
192.00	0.639282
193.00	0.617798
194.00	0.593628
195.00	0.569702
196.00	0.547729
197.00	0.526001
198.00	0.506714
199.00	0.491821
200.00	0.479126
201.00	0.468384
202.00	0.464355
203.00	0.462402
204.00	0.464478
205.00	0.468262
206.00	0.474243
207.00	0.482666
208.00	0.493896
209.00	0.504272
210.00	0.518555
211.00	0.531250
212.00	0.547485
213.00	0.564575
214.00	0.585083
215.00	0.609009
216.00	0.634766
217.00	0.670410
218.00	0.712158
219.00	0.760254
220.00	0.811279
221.00	0.865112
222.00	0.933228
223.00	1.010864
224.00	1.098755
225.00	1.192749
226.00	1.286987
227.00	1.401367
228.00	1.520630
229.00	1.650024
230.00	1.783569
231.00	1.914185
232.00	2.072021
233.00	2.234985
234.00	2.401367
235.00	2.566650
236.00	2.717041
237.00	2.833130
238.00	2.967896
239.00	3.068359
240.00	3.162720
241.00	3.239502
242.00	3.236938
243.00	3.279419
244.00	3.276367
245.00	3.273071
246.00	3.269531
247.00	3.265503
248.00	3.260254
249.00	3.167358
250.00	3.123535
251.00	3.082031
252.00	3.013306
253.00	2.903320
254.00	2.727417
255.00	2.451172
256.00	2.134033
257.00	1.819824
258.00	1.488403
259.00	1.198242
260.00	0.952271
261.00	0.755615
262.00	0.603882
263.00	0.466431
264.00	0.357544
265.00	0.275513
266.00	0.216919
267.00	0.177368
268.00	0.144653
269.00	0.122925
270.00	0.108643
271.00	0.098511
272.00	0.092163
273.00	0.087891
274.00	0.085205
275.00	0.083252
276.00	0.082031
277.00	0.081665
278.00	0.081177
279.00	0.081665
280.00	0.082397
281.00	0.082886
282.00	0.082642
283.00	0.083008
284.00	0.083618
285.00	0.084106
286.00	0.084595
287.00	0.084229
288.00	0.084717
289.00	0.083862
290.00	0.084473
291.00	0.083862
292.00	0.082764
293.00	0.082520
294.00	0.082031
295.00	0.080811
296.00	0.079224
297.00	0.078125
298.00	0.077393
299.00	0.075439
300.00	0.073730
301.00	0.072144
302.00	0.070801
303.00	0.068726
304.00	0.067017
305.00	0.065308
306.00	0.063232
307.00	0.060303
308.00	0.058105
309.00	0.056763
310.00	0.054688
311.00	0.052490
312.00	0.050903
313.00	0.049927
314.00	0.048340
315.00	0.046509
316.00	0.045044
317.00	0.043823
318.00	0.041748
319.00	0.040283
320.00	0.038574
321.00	0.037109
322.00	0.034912
323.00	0.033447
324.00	0.031982
325.00	0.030762
326.00	0.029053
327.00	0.026123
328.00	0.026245
329.00	0.025269
330.00	0.023682
331.00	0.022583
332.00	0.021240
333.00	0.019775
334.00	0.019165
335.00	0.017700
336.00	0.016724
337.00	0.016357
338.00	0.015015
339.00	0.014160
340.00	0.013672
341.00	0.013184
342.00	0.012573
343.00	0.011841
344.00	0.010986
345.00	0.010620
346.00	0.010498
347.00	0.010498
348.00	0.010376
349.00	0.010010
350.00	0.009033
351.00	0.009521
352.00	0.009521
353.00	0.009399
354.00	0.009033
355.00	0.008911
356.00	0.008911
357.00	0.009888
358.00	0.009399
359.00	0.008667
360.00	0.009766
361.00	0.009888
362.00	0.009277
363.00	0.009277
364.00	0.009888
365.00	0.008179
366.00	0.002930
367.00	0.003784
368.00	0.003784
369.00	0.003540
370.00	0.003784
371.00	0.004395
372.00	0.003784
373.00	0.004150
374.00	0.005005
375.00	0.004883
376.00	0.005371
377.00	0.004395
378.00	0.004639
379.00	0.005493
380.00	0.004883
381.00	0.005127
382.00	0.005249
383.00	0.005615
384.00	0.005615
385.00	0.006226
386.00	0.005859
387.00	0.006348
388.00	0.006714
389.00	0.006226
390.00	0.006226
391.00	0.006836
392.00	0.006348
393.00	0.006592
394.00	0.007080
395.00	0.007324
396.00	0.007324
397.00	0.007935
398.00	0.007446
399.00	0.007813
400.00	0.007813
401.00	0.007568
402.00	0.007935
403.00	0.008545
404.00	0.008423
405.00	0.008301
406.00	0.008301
407.00	0.008545
408.00	0.008911
409.00	0.008667
410.00	0.008789
411.00	0.009277
412.00	0.009277
413.00	0.009399
414.00	0.009521
415.00	0.009399
416.00	0.009644
417.00	0.008911
418.00	0.009155
419.00	0.008911
420.00	0.009033
421.00	0.009277
422.00	0.009521
423.00	0.009521
424.00	0.009155
425.00	0.009888
426.00	0.010010
427.00	0.009644
428.00	0.009766
429.00	0.009888
430.00	0.010254
431.00	0.010010
432.00	0.010254
433.00	0.010376
434.00	0.010376
435.00	0.009766
436.00	0.010498
437.00	0.010620
438.00	0.010742
439.00	0.010742
440.00	0.010742
441.00	0.010620
442.00	0.010864
443.00	0.011108
444.00	0.011230
445.00	0.010986
446.00	0.010620
447.00	0.010376
448.00	0.010498
449.00	0.010742
450.00	0.010498
451.00	0.009888
452.00	0.009888
453.00	0.009766
454.00	0.009521
455.00	0.009277
456.00	0.009399
457.00	0.009644
458.00	0.009521
459.00	0.009033
460.00	0.009155
461.00	0.009277
462.00	0.009399
463.00	0.009399
464.00	0.009399
465.00	0.009521
466.00	0.009644
467.00	0.009644
468.00	0.009644
469.00	0.009399
470.00	0.009644
471.00	0.009399
472.00	0.009155
473.00	0.008911
474.00	0.009399
475.00	0.009033
476.00	0.008911
477.00	0.009033
478.00	0.009033
479.00	0.008789
480.00	0.009155
481.00	0.009033
482.00	0.009033
483.00	0.008789
484.00	0.009033
485.00	0.008789
486.00	0.008911
487.00	0.008545
488.00	0.008667
489.00	0.008667
490.00	0.008667
491.00	0.008423
492.00	0.008545
493.00	0.008545
494.00	0.008667
495.00	0.008789
496.00	0.007813
497.00	0.008301
498.00	0.008667
499.00	0.008545
500.00	0.008423
501.00	0.008545
502.00	0.008667
503.00	0.008179
504.00	0.007813
505.00	0.007813
506.00	0.008301
507.00	0.008179
508.00	0.008301
509.00	0.008057
510.00	0.008179
511.00	0.008179
512.00	0.007935
513.00	0.008057
514.00	0.007813
515.00	0.007935
516.00	0.008057
517.00	0.007935
518.00	0.007813
519.00	0.007690
520.00	0.007324
521.00	0.007446
522.00	0.007324
523.00	0.007202
524.00	0.007202
525.00	0.007202
526.00	0.007080
527.00	0.007202
528.00	0.007080
529.00	0.007080
530.00	0.007202
531.00	0.007080
532.00	0.006836
533.00	0.006836
534.00	0.006714
535.00	0.006958
536.00	0.006470
537.00	0.005005
538.00	0.004639
539.00	0.005005
540.00	0.004761
541.00	0.005005
542.00	0.005005
543.00	0.004883
544.00	0.005005
545.00	0.005127
546.00	0.004883
547.00	0.004639
548.00	0.005005
549.00	0.004517
550.00	0.004883
551.00	0.004517
552.00	0.004761
553.00	0.004639
554.00	0.004272
555.00	0.004395
556.00	0.004272
557.00	0.004150
558.00	0.004150
559.00	0.004028
560.00	0.004028
561.00	0.004028
562.00	0.003540
563.00	0.003662
564.00	0.003540
565.00	0.003662
566.00	0.003540
567.00	0.003418
568.00	0.003296
569.00	0.003296
570.00	0.003052
571.00	0.002808
572.00	0.002930
573.00	0.003174
574.00	0.003052
575.00	0.002930
576.00	0.002808
577.00	0.002686
578.00	0.002563
579.00	0.002563
580.00	0.002441
581.00	0.002441
582.00	0.002441
583.00	0.002319
584.00	0.002319
585.00	0.002075
586.00	0.001953
587.00	0.001953
588.00	0.001953
589.00	0.001953
590.00	0.001953
591.00	0.001831
592.00	0.001831
593.00	0.001831
594.00	0.001587
595.00	0.001587
596.00	0.001587
597.00	0.001587
598.00	0.001587
599.00	0.001343
600.00	0.001099
601.00	0.001343
602.00	0.001221
603.00	0.001221
604.00	0.001221
605.00	0.001099
606.00	0.000854
607.00	0.001221
608.00	0.001221
609.00	0.000977
610.00	0.000977
611.00	0.000610
612.00	0.000732
613.00	0.000854
614.00	0.000732
615.00	0.000488
616.00	0.000732
617.00	0.000610
618.00	0.000488
619.00	0.000366
620.00	0.000488
621.00	0.000488
622.00	0.000488
623.00	0.000366
624.00	0.000366
625.00	0.000366
626.00	0.000244
627.00	0.000488
628.00	0.000244
629.00	0.000244
630.00	0.000122
631.00	0.000122
632.00	0.000000
633.00	0.000000
634.00	0.000000
635.00	0.000000
636.00	0.000000
637.00	0.000000
638.00	-0.000122
639.00	-0.000366
640.00	0.000000
641.00	-0.000122
642.00	-0.000244
643.00	-0.000366
644.00	-0.000244
645.00	-0.000366
646.00	-0.000122
647.00	-0.000244
648.00	-0.000122
649.00	-0.000122
650.00	-0.000244
651.00	-0.000244
652.00	-0.000244
653.00	-0.000366
654.00	-0.000122
655.00	-0.000122
656.00	-0.000366
657.00	-0.000122
658.00	-0.000244
659.00	-0.000366
660.00	-0.000488
661.00	-0.000366
662.00	-0.000366
663.00	-0.000488
664.00	-0.000366
665.00	-0.000488
666.00	-0.000488
667.00	-0.000488
668.00	-0.000366
669.00	-0.000244
670.00	-0.000244
671.00	-0.000366
672.00	-0.000488
673.00	-0.000610
674.00	-0.000610
675.00	-0.000610
676.00	-0.000610
677.00	-0.000610
678.00	-0.000732
679.00	-0.000610
680.00	-0.000488
681.00	-0.000488
682.00	-0.000610
683.00	-0.000610
684.00	-0.000732
685.00	-0.000610
686.00	-0.000610
687.00	-0.000488
688.00	-0.000732
689.00	-0.000732
690.00	-0.000732
691.00	-0.000610
692.00	-0.000610
693.00	-0.000610
694.00	-0.000732
695.00	-0.000732
696.00	-0.000732
697.00	-0.000610
698.00	-0.000610
699.00	-0.000610
700.00	-0.000610
701.00	-0.000732
702.00	-0.000854
703.00	-0.000732
704.00	-0.000610
705.00	-0.000732
706.00	-0.000610
707.00	-0.000732
708.00	-0.000732
709.00	-0.000732
710.00	-0.000732
711.00	-0.000610
712.00	-0.000732
713.00	-0.000732
714.00	-0.000732
715.00	-0.000854
716.00	-0.000732
717.00	-0.000610
718.00	-0.000854
719.00	-0.000610
720.00	-0.000610
721.00	-0.000610
722.00	-0.000610
723.00	-0.000732
724.00	-0.000732
725.00	-0.000732
726.00	-0.000854
727.00	-0.000854
728.00	-0.000732
729.00	-0.000854
730.00	-0.000977
731.00	-0.000732
732.00	-0.000854
733.00	-0.000732
734.00	-0.000854
735.00	-0.000732
736.00	-0.000854
737.00	-0.000977
738.00	-0.000854
739.00	-0.000732
740.00	-0.000854
741.00	-0.000854
742.00	-0.000977
743.00	-0.000977
744.00	-0.000854
745.00	-0.000854
746.00	-0.000854
747.00	-0.000732
748.00	-0.000854
749.00	-0.000732
750.00	-0.000977
751.00	-0.000854
752.00	-0.000854
753.00	-0.000854
754.00	-0.000854
755.00	-0.000854
756.00	-0.000854
757.00	-0.000854
758.00	-0.000732
759.00	-0.000732
760.00	-0.000977
761.00	-0.001099
762.00	-0.000977
763.00	-0.000977
764.00	-0.001221
765.00	-0.001099
766.00	-0.001099
767.00	-0.001099
768.00	-0.001099
769.00	-0.001221
770.00	-0.000977
771.00	-0.001099
772.00	-0.001099
773.00	-0.001099
774.00	-0.001099
775.00	-0.000854
776.00	-0.000977
777.00	-0.001099
778.00	-0.000977
779.00	-0.000854
780.00	-0.000977
781.00	-0.001099
782.00	-0.000977
783.00	-0.000977
784.00	-0.001099
785.00	-0.000977
786.00	-0.001099
787.00	-0.000977
788.00	-0.001099
789.00	-0.001221
790.00	-0.000977
791.00	-0.001099
792.00	-0.001099
793.00	-0.001099
794.00	-0.001099
795.00	-0.000977
796.00	-0.001099
797.00	-0.001099
798.00	-0.000977
799.00	-0.000977
800.00	-0.001221
801.00	-0.001343
802.00	-0.000977
803.00	-0.000977
804.00	-0.001099
805.00	-0.001099
806.00	-0.001221
807.00	-0.001099
808.00	-0.001099
809.00	-0.001221
810.00	-0.001099
811.00	-0.001221
812.00	-0.001221
813.00	-0.001221
814.00	-0.001221
815.00	-0.001343
816.00	-0.001099
817.00	-0.001099
818.00	-0.001099
819.00	-0.001099
820.00	-0.001099
821.00	-0.001221
822.00	-0.001343
823.00	-0.001099
824.00	-0.000977
825.00	-0.001221
826.00	-0.000977
827.00	-0.000977
828.00	-0.000977
829.00	-0.000977
830.00	-0.001099
831.00	-0.001099
832.00	-0.001099
833.00	-0.000977
834.00	-0.001099
835.00	-0.001099
836.00	-0.001099
837.00	-0.001099
838.00	-0.000977
839.00	-0.000854
840.00	-0.000977
841.00	-0.000977
842.00	-0.001099
843.00	-0.001099
844.00	-0.000977
845.00	-0.001221
846.00	-0.000977
847.00	-0.000977
848.00	-0.001221
849.00	-0.000977
850.00	-0.001099
851.00	-0.001221
852.00	-0.001099
853.00	-0.001221
854.00	-0.001099
855.00	-0.001099
856.00	-0.001221
857.00	-0.001221
858.00	-0.001099
859.00	-0.001221
860.00	-0.001099
861.00	-0.001099
862.00	-0.001221
863.00	-0.001221
864.00	-0.001099
865.00	-0.001099
866.00	-0.001099
867.00	-0.001221
868.00	-0.001099
869.00	-0.001343
870.00	-0.001343
871.00	-0.000977
872.00	-0.001221
873.00	-0.001099
874.00	-0.001099
875.00	-0.000854
876.00	-0.001099
877.00	-0.001099
878.00	-0.001099
879.00	-0.001221
880.00	-0.001099
881.00	-0.000977
882.00	-0.001221
883.00	-0.001221
884.00	-0.001099
885.00	-0.001221
886.00	-0.000977
887.00	-0.000610
888.00	-0.000732
889.00	-0.000854
890.00	-0.000732
891.00	-0.000977
892.00	-0.000854
893.00	-0.000854
894.00	-0.000610
895.00	-0.000854
896.00	-0.000610
897.00	-0.000732
898.00	-0.000732
899.00	-0.000854
900.00	-0.000732