Wavelength nm.	RawData ...
190.00	2.418823
191.00	2.517700
192.00	2.690063
193.00	2.743408
194.00	2.777222
195.00	2.877441
196.00	2.897095
197.00	2.935059
198.00	2.939453
199.00	2.942017
200.00	2.940674
201.00	2.968628
202.00	2.998291
203.00	3.024170
204.00	3.056274
205.00	2.995483
206.00	3.122070
207.00	3.059692
208.00	3.094360
209.00	3.126221
210.00	3.158325
211.00	3.184448
212.00	3.213501
213.00	3.239258
214.00	3.264282
215.00	3.288086
216.00	3.228638
217.00	3.249634
218.00	3.268555
219.00	3.285400
220.00	3.174683
221.00	3.135864
222.00	3.022583
223.00	2.857178
224.00	2.617920
225.00	2.384277
226.00	2.135742
227.00	1.867432
228.00	1.616333
229.00	1.385986
230.00	1.189453
231.00	1.018188
232.00	0.856812
233.00	0.720093
234.00	0.604126
235.00	0.510254
236.00	0.435913
237.00	0.375977
238.00	0.322998
239.00	0.280640
240.00	0.247803
241.00	0.224854
242.00	0.209595
243.00	0.198120
244.00	0.191528
245.00	0.191650
246.00	0.195190
247.00	0.202637
248.00	0.214844
249.00	0.231689
250.00	0.253540
251.00	0.278564
252.00	0.307373
253.00	0.344604
254.00	0.385376
255.00	0.433105
256.00	0.482788
257.00	0.535034
258.00	0.600952
259.00	0.671387
260.00	0.746704
261.00	0.827026
262.00	0.904785
263.00	0.995728
264.00	1.094360
265.00	1.195801
266.00	1.296021
267.00	1.390137
268.00	1.493042
269.00	1.589355
270.00	1.683105
271.00	1.764282
272.00	1.831543
273.00	1.885010
274.00	1.916260
275.00	1.930908
276.00	1.915161
277.00	1.874146
278.00	1.814819
279.00	1.727539
280.00	1.612671
281.00	1.464966
282.00	1.295288
283.00	1.120483
284.00	0.925781
285.00	0.741333
286.00	0.581055
287.00	0.449219
288.00	0.343384
289.00	0.250732
290.00	0.179688
291.00	0.126465
292.00	0.090576
293.00	0.067993
294.00	0.049805
295.00	0.038086
296.00	0.030151
297.00	0.024414
298.00	0.021729
299.00	0.019531
300.00	0.018555
301.00	0.017212
302.00	0.016968
303.00	0.016968
304.00	0.016602
305.00	0.016724
306.00	0.016846
307.00	0.015015
308.00	0.015259
309.00	0.015381
310.00	0.015137
311.00	0.015259
312.00	0.015137
313.00	0.014893
314.00	0.015259
315.00	0.015015
316.00	0.011353
317.00	0.012817
318.00	0.014160
319.00	0.014038
320.00	0.014282
321.00	0.013916
322.00	0.013428
323.00	0.013428
324.00	0.013184
325.00	0.012695
326.00	0.011841
327.00	0.011353
328.00	0.011108
329.00	0.011108
330.00	0.010010
331.00	0.009644
332.00	0.009277
333.00	0.008423
334.00	0.008057
335.00	0.006836
336.00	0.006592
337.00	0.006348
338.00	0.006104
339.00	0.005493
340.00	0.005981
341.00	0.005493
342.00	0.005127
343.00	0.004517
344.00	0.004395
345.00	0.004272
346.00	0.004150
347.00	0.003662
348.00	0.004150
349.00	0.004150
350.00	0.004028
351.00	0.004272
352.00	0.003540
353.00	0.004272
354.00	0.004639
355.00	0.003662
356.00	0.003906
357.00	0.004639
358.00	0.004150
359.00	0.004150
360.00	0.005005
361.00	0.005249
362.00	0.004395
363.00	0.004272
364.00	0.004150
365.00	0.004883
366.00	0.000000
367.00	0.000610
368.00	0.000488
369.00	0.000122
370.00	0.000366
371.00	0.000610
372.00	0.000122
373.00	0.000366
374.00	0.000977
375.00	0.000732
376.00	0.000366
377.00	0.000366
378.00	0.000488
379.00	0.000854
380.00	0.000244
381.00	0.000366
382.00	0.000488
383.00	0.000732
384.00	0.000366
385.00	0.001099
386.00	0.000732
387.00	0.001099
388.00	0.000610
389.00	0.000732
390.00	0.000854
391.00	0.001221
392.00	0.000732
393.00	0.000854
394.00	0.000977
395.00	0.001221
396.00	0.000854
397.00	0.001587
398.00	0.001221
399.00	0.001587
400.00	0.001343
401.00	0.001221
402.00	0.001465
403.00	0.001709
404.00	0.001465
405.00	0.001587
406.00	0.001587
407.00	0.001831
408.00	0.001587
409.00	0.001709
410.00	0.001465
411.00	0.001709
412.00	0.001587
413.00	0.001587
414.00	0.001465
415.00	0.001465
416.00	0.001587
417.00	0.000854
418.00	0.001099
419.00	0.000977
420.00	0.000977
421.00	0.000854
422.00	0.001099
423.00	0.000977
424.00	0.000854
425.00	0.001343
426.00	0.001343
427.00	0.001343
428.00	0.001221
429.00	0.000977
430.00	0.001221
431.00	0.001343
432.00	0.001343
433.00	0.000977
434.00	0.001221
435.00	0.001465
436.00	0.001465
437.00	0.001709
438.00	0.001831
439.00	0.001709
440.00	0.001953
441.00	0.001953
442.00	0.002075
443.00	0.002197
444.00	0.002197
445.00	0.002319
446.00	0.002319
447.00	0.002075
448.00	0.001953
449.00	0.001953
450.00	0.001953
451.00	0.001587
452.00	0.001465
453.00	0.001465
454.00	0.001709
455.00	0.001343
456.00	0.001221
457.00	0.001587
458.00	0.001587
459.00	0.001343
460.00	0.001221
461.00	0.001343
462.00	0.001587
463.00	0.001343
464.00	0.001587
465.00	0.001831
466.00	0.001953
467.00	0.001953
468.00	0.002075
469.00	0.002075
470.00	0.002075
471.00	0.001831
472.00	0.001953
473.00	0.001953
474.00	0.002075
475.00	0.001709
476.00	0.001709
477.00	0.001709
478.00	0.001831
479.00	0.001587
480.00	0.001709
481.00	0.001709
482.00	0.001831
483.00	0.001587
484.00	0.001831
485.00	0.001709
486.00	0.001953
487.00	0.001709
488.00	0.001709
489.00	0.001709
490.00	0.001831
491.00	0.001709
492.00	0.001831
493.00	0.001831
494.00	0.001953
495.00	0.001709
496.00	0.001831
497.00	0.002075
498.00	0.001953
499.00	0.001953
500.00	0.001953
501.00	0.001953
502.00	0.001709
503.00	0.001953
504.00	0.002075
505.00	0.001953
506.00	0.002197
507.00	0.002075
508.00	0.001831
509.00	0.002075
510.00	0.002075
511.00	0.001953
512.00	0.001953
513.00	0.001831
514.00	0.001587
515.00	0.001709
516.00	0.001953
517.00	0.001953
518.00	0.002075
519.00	0.002075
520.00	0.002197
521.00	0.001953
522.00	0.001953
523.00	0.002075
524.00	0.001953
525.00	0.002075
526.00	0.002075
527.00	0.002075
528.00	0.002197
529.00	0.002075
530.00	0.002197
531.00	0.002075
532.00	0.002075
533.00	0.002075
534.00	0.001831
535.00	0.002075
536.00	0.002319
537.00	0.000732
538.00	0.000854
539.00	0.000610
540.00	0.000610
541.00	0.000854
542.00	0.000977
543.00	0.000854
544.00	0.000854
545.00	0.000977
546.00	0.000732
547.00	0.000854
548.00	0.000854
549.00	0.001099
550.00	0.001099
551.00	0.000977
552.00	0.000854
553.00	0.001099
554.00	0.000854
555.00	0.001099
556.00	0.000977
557.00	0.000854
558.00	0.000977
559.00	0.000977
560.00	0.000977
561.00	0.000977
562.00	0.000977
563.00	0.000977
564.00	0.000977
565.00	0.001099
566.00	0.000977
567.00	0.000977
568.00	0.000732
569.00	0.000977
570.00	0.000977
571.00	0.000977
572.00	0.000854
573.00	0.000854
574.00	0.000854
575.00	0.000854
576.00	0.000732
577.00	0.000854
578.00	0.000854
579.00	0.000977
580.00	0.000610
581.00	0.000854
582.00	0.000732
583.00	0.000610
584.00	0.000854
585.00	0.000732
586.00	0.000732
587.00	0.000854
588.00	0.000854
589.00	0.000732
590.00	0.000854
591.00	0.000732
592.00	0.000610
593.00	0.000610
594.00	0.000610
595.00	0.000488
596.00	0.000488
597.00	0.000610
598.00	0.000488
599.00	0.000488
600.00	0.000488
601.00	0.000610
602.00	0.000610
603.00	0.000488
604.00	0.000610
605.00	0.000610
606.00	0.000488
607.00	0.000488
608.00	0.000488
609.00	0.000488
610.00	0.000488
611.00	0.000488
612.00	0.000610
613.00	0.000610
614.00	0.000366
615.00	0.000488
616.00	0.000610
617.00	0.000488
618.00	0.000488
619.00	0.000244
620.00	0.000488
621.00	0.000366
622.00	0.000244
623.00	0.000244
624.00	0.000366
625.00	0.000488
626.00	0.000366
627.00	0.000488
628.00	0.000366
629.00	0.000488
630.00	0.000366
631.00	0.000488
632.00	0.000488
633.00	0.000366
634.00	0.000366
635.00	0.000366
636.00	0.000366
637.00	0.000488
638.00	0.000244
639.00	0.000000
640.00	0.000244
641.00	0.000122
642.00	0.000000
643.00	0.000000
644.00	0.000000
645.00	0.000000
646.00	0.000122
647.00	0.000244
648.00	0.000244
649.00	0.000122
650.00	0.000000
651.00	0.000122
652.00	0.000122
653.00	0.000244
654.00	0.000244
655.00	0.000244
656.00	0.000244
657.00	0.000244
658.00	0.000244
659.00	0.000244
660.00	0.000366
661.00	0.000366
662.00	0.000366
663.00	0.000244
664.00	0.000244
665.00	0.000488
666.00	0.000488
667.00	0.000610
668.00	0.000488
669.00	0.000488
670.00	0.000366
671.00	0.000366
672.00	0.000366
673.00	0.000366
674.00	0.000610
675.00	0.000488
676.00	0.000366
677.00	0.000488
678.00	0.000366
679.00	0.000488
680.00	0.000732
681.00	0.000610
682.00	0.000488
683.00	0.000610
684.00	0.000488
685.00	0.000366
686.00	0.000366
687.00	0.000366
688.00	0.000366
689.00	0.000488
690.00	0.000366
691.00	0.000366
692.00	0.000366
693.00	0.000366
694.00	0.000366
695.00	0.000244
696.00	0.000366
697.00	0.000244
698.00	0.000366
699.00	0.000244
700.00	0.000244
701.00	0.000122
702.00	0.000244
703.00	0.000122
704.00	0.000244
705.00	0.000122
706.00	0.000000
707.00	0.000244
708.00	0.000122
709.00	0.000366
710.00	0.000244
711.00	0.000122
712.00	0.000122
713.00	0.000244
714.00	0.000244
715.00	0.000122
716.00	0.000122
717.00	0.000244
718.00	0.000122
719.00	0.000122
720.00	0.000244
721.00	0.000244
722.00	0.000122
723.00	0.000122
724.00	0.000244
725.00	0.000122
726.00	0.000122
727.00	0.000000
728.00	0.000000
729.00	0.000366
730.00	0.000122
731.00	0.000244
732.00	0.000000
733.00	0.000122
734.00	0.000244
735.00	0.000122
736.00	0.000122
737.00	0.000000
738.00	0.000122
739.00	0.000000
740.00	0.000000
741.00	0.000000
742.00	0.000000
743.00	0.000000
744.00	0.000000
745.00	0.000000
746.00	0.000000
747.00	0.000000
748.00	0.000000
749.00	0.000000
750.00	0.000000
751.00	0.000000
752.00	0.000000
753.00	0.000000
754.00	0.000000
755.00	0.000000
756.00	0.000000
757.00	0.000000
758.00	0.000000
759.00	0.000000
760.00	0.000000
761.00	0.000000
762.00	-0.000122
763.00	-0.000122
764.00	0.000000
765.00	-0.000122
766.00	-0.000122
767.00	-0.000122
768.00	-0.000244
769.00	-0.000122
770.00	-0.000244
771.00	-0.000366
772.00	-0.000244
773.00	-0.000244
774.00	-0.000244
775.00	-0.000122
776.00	-0.000244
777.00	-0.000122
778.00	-0.000122
779.00	-0.000244
780.00	-0.000244
781.00	-0.000244
782.00	-0.000244
783.00	-0.000244
784.00	-0.000122
785.00	-0.000244
786.00	-0.000366
787.00	-0.000366
788.00	-0.000244
789.00	-0.000366
790.00	-0.000122
791.00	-0.000366
792.00	-0.000610
793.00	-0.000366
794.00	-0.000488
795.00	-0.000366
796.00	-0.000488
797.00	-0.000488
798.00	-0.000488
799.00	-0.000488
800.00	-0.000610
801.00	-0.000488
802.00	-0.000488
803.00	-0.000488
804.00	-0.000488
805.00	-0.000488
806.00	-0.000610
807.00	-0.000732
808.00	-0.000610
809.00	-0.000610
810.00	-0.000488
811.00	-0.000732
812.00	-0.000488
813.00	-0.000610
814.00	-0.000610
815.00	-0.000488
816.00	-0.000610
817.00	-0.000610
818.00	-0.000610
819.00	-0.000610
820.00	-0.000610
821.00	-0.000610
822.00	-0.000732
823.00	-0.000610
824.00	-0.000610
825.00	-0.000610
826.00	-0.000610
827.00	-0.000488
828.00	-0.000488
829.00	-0.000366
830.00	-0.000488
831.00	-0.000488
832.00	-0.000488
833.00	-0.000366
834.00	-0.000488
835.00	-0.000488
836.00	-0.000488
837.00	-0.000488
838.00	-0.000488
839.00	-0.000488
840.00	-0.000366
841.00	-0.000366
842.00	-0.000488
843.00	-0.000488
844.00	-0.000610
845.00	-0.000488
846.00	-0.000488
847.00	-0.000488
848.00	-0.000366
849.00	-0.000488
850.00	-0.000488
851.00	-0.000488
852.00	-0.000610
853.00	-0.000610
854.00	-0.000488
855.00	-0.000610
856.00	-0.000488
857.00	-0.000366
858.00	-0.000488
859.00	-0.000366
860.00	-0.000488
861.00	-0.000488
862.00	-0.000488
863.00	-0.000366
864.00	-0.000488
865.00	-0.000366
866.00	-0.000488
867.00	-0.000488
868.00	-0.000244
869.00	-0.000366
870.00	-0.000366
871.00	-0.000244
872.00	-0.000244
873.00	-0.000244
874.00	-0.000366
875.00	-0.000366
876.00	-0.000488
877.00	-0.000488
878.00	-0.000488
879.00	-0.000366
880.00	-0.000244
881.00	-0.000244
882.00	-0.000366
883.00	-0.000366
884.00	-0.000488
885.00	-0.000488
886.00	-0.000488
887.00	-0.000366
888.00	-0.000366
889.00	-0.000244
890.00	-0.000244
891.00	-0.000122
892.00	-0.000244
893.00	-0.000244
894.00	-0.000244
895.00	-0.000122
896.00	-0.000122
897.00	-0.000244
898.00	-0.000122
899.00	-0.000244
900.00	-0.000488