Wavelength nm.	RawData ...
200.00	1.776001
201.00	1.720825
202.00	1.675537
203.00	1.624878
204.00	1.573730
205.00	1.525269
206.00	1.476807
207.00	1.425781
208.00	1.374023
209.00	1.326050
210.00	1.278076
211.00	1.235352
212.00	1.190430
213.00	1.145874
214.00	1.102661
215.00	1.060181
216.00	1.018799
217.00	0.971436
218.00	0.927002
219.00	0.882202
220.00	0.841553
221.00	0.805176
222.00	0.764038
223.00	0.725830
224.00	0.688477
225.00	0.653076
226.00	0.621094
227.00	0.587402
228.00	0.555298
229.00	0.523804
230.00	0.495117
231.00	0.467896
232.00	0.439697
233.00	0.412476
234.00	0.386108
235.00	0.361572
236.00	0.338867
237.00	0.317139
238.00	0.293945
239.00	0.271729
240.00	0.250122
241.00	0.230469
242.00	0.213257
243.00	0.194580
244.00	0.176392
245.00	0.160034
246.00	0.144531
247.00	0.131104
248.00	0.116455
249.00	0.102173
250.00	0.089722
251.00	0.077637
252.00	0.066406
253.00	0.055054
254.00	0.044678
255.00	0.034790
256.00	0.025391
257.00	0.017944
258.00	0.009521
259.00	0.001587
260.00	-0.006470
261.00	-0.013062
262.00	-0.018311
263.00	-0.025146
264.00	-0.031372
265.00	-0.036865
266.00	-0.042114
267.00	-0.046509
268.00	-0.052002
269.00	-0.056030
270.00	-0.061646
271.00	-0.065674
272.00	-0.068970
273.00	-0.072876
274.00	-0.075928
275.00	-0.079834
276.00	-0.083374
277.00	-0.086670
278.00	-0.089355
279.00	-0.092163
280.00	-0.095093
281.00	-0.097412
282.00	-0.099731
283.00	-0.102051
284.00	-0.103882
285.00	-0.105957
286.00	-0.108032
287.00	-0.109863
288.00	-0.110718
289.00	-0.112305
290.00	-0.113770
291.00	-0.115601
292.00	-0.116821
293.00	-0.117554
294.00	-0.119019
295.00	-0.120117
296.00	-0.120605
297.00	-0.121704
298.00	-0.122803
299.00	-0.123291
300.00	-0.124268
301.00	-0.124756
302.00	-0.125610
303.00	-0.125977
304.00	-0.126709
305.00	-0.127075
306.00	-0.128174
307.00	-0.128906
308.00	-0.129150
309.00	-0.129517
310.00	-0.130127
311.00	-0.130493
312.00	-0.130493
313.00	-0.130371
314.00	-0.130859
315.00	-0.131592
316.00	-0.131470
317.00	-0.131470
318.00	-0.131836
319.00	-0.131958
320.00	-0.132446
321.00	-0.132568
322.00	-0.133179
323.00	-0.133179
324.00	-0.132935
325.00	-0.132935
326.00	-0.133301
327.00	-0.133667
328.00	-0.133545
329.00	-0.133423
330.00	-0.130249
331.00	-0.130981
332.00	-0.132690
333.00	-0.133789
334.00	-0.133667
335.00	-0.134033
336.00	-0.134155
337.00	-0.133911
338.00	-0.133911
339.00	-0.133789
340.00	-0.134155
341.00	-0.134033
342.00	-0.133789
343.00	-0.133911
344.00	-0.134399
345.00	-0.133789
346.00	-0.133667
347.00	-0.134277
348.00	-0.134155
349.00	-0.134155
350.00	-0.134399
351.00	-0.134399
352.00	-0.134399
353.00	-0.134155
354.00	-0.133667
355.00	-0.134155
356.00	-0.134521
357.00	-0.133667
358.00	-0.133545
359.00	-0.134155
360.00	-0.133423
361.00	-0.133667
362.00	-0.134888
363.00	-0.134521
364.00	-0.134521
365.00	-0.130005
366.00	-0.130005
367.00	-0.130127
368.00	-0.129517
369.00	-0.129761
370.00	-0.130127
371.00	-0.130005
372.00	-0.129395
373.00	-0.130005
374.00	-0.129395
375.00	-0.129761
376.00	-0.129517
377.00	-0.130127
378.00	-0.129761
379.00	-0.129395
380.00	-0.129395
381.00	-0.129761
382.00	-0.129883
383.00	-0.130005
384.00	-0.129395
385.00	-0.129395
386.00	-0.129883
387.00	-0.129639
388.00	-0.129639
389.00	-0.130005
390.00	-0.129761
391.00	-0.129272
392.00	-0.129395
393.00	-0.129639
394.00	-0.129761
395.00	-0.129761
396.00	-0.129150
397.00	-0.129150
398.00	-0.129639
399.00	-0.129639
400.00	-0.129517
401.00	-0.129761
402.00	-0.129639
403.00	-0.129761
404.00	-0.129395
405.00	-0.129517
406.00	-0.129517
407.00	-0.129517
408.00	-0.129272
409.00	-0.129395
410.00	-0.129639
411.00	-0.129395
412.00	-0.129395
413.00	-0.129395
414.00	-0.129517
415.00	-0.129395
416.00	-0.129395
417.00	-0.130005
418.00	-0.129761
419.00	-0.129761
420.00	-0.129761
421.00	-0.130005
422.00	-0.129761
423.00	-0.130005
424.00	-0.129639
425.00	-0.129517
426.00	-0.129883
427.00	-0.129639
428.00	-0.129272
429.00	-0.129883
430.00	-0.129761
431.00	-0.129395
432.00	-0.129517
433.00	-0.129761
434.00	-0.129517
435.00	-0.129639
436.00	-0.129517
437.00	-0.129517
438.00	-0.129395
439.00	-0.129272
440.00	-0.129272
441.00	-0.129395
442.00	-0.129272
443.00	-0.129395
444.00	-0.129395
445.00	-0.129395
446.00	-0.129639
447.00	-0.129639
448.00	-0.129517
449.00	-0.129639
450.00	-0.129761
451.00	-0.129761
452.00	-0.129639
453.00	-0.129883
454.00	-0.130005
455.00	-0.129761
456.00	-0.129639
457.00	-0.129517
458.00	-0.129761
459.00	-0.129761
460.00	-0.129639
461.00	-0.129639
462.00	-0.129639
463.00	-0.129517
464.00	-0.129272
465.00	-0.129517
466.00	-0.129517
467.00	-0.129639
468.00	-0.129639
469.00	-0.129761
470.00	-0.129761
471.00	-0.129761
472.00	-0.129639
473.00	-0.129761
474.00	-0.130005
475.00	-0.130005
476.00	-0.129395
477.00	-0.129639
478.00	-0.129761
479.00	-0.129517
480.00	-0.129517
481.00	-0.129761
482.00	-0.129761
483.00	-0.129639
484.00	-0.129517
485.00	-0.129883
486.00	-0.129639
487.00	-0.129639
488.00	-0.129395
489.00	-0.129761
490.00	-0.129883
491.00	-0.129761
492.00	-0.129761
493.00	-0.129761
494.00	-0.129883
495.00	-0.129761
496.00	-0.129517
497.00	-0.129639
498.00	-0.129517
499.00	-0.129639
500.00	-0.129761